{
  "resourceType": "Bundle",
  "id": "rei-synthetic-patient-bundle-001",
  "type": "collection",
  "timestamp": "2026-01-20T10:00:00-08:00",
  "entry": [
    {
      "fullUrl": "urn:uuid:org-1",
      "resource": {
        "resourceType": "Organization",
        "id": "org-1",
        "name": "Stanford REI Clinic (Synthetic)"
      }
    },
    {
      "fullUrl": "urn:uuid:pract-1",
      "resource": {
        "resourceType": "Practitioner",
        "id": "pract-1",
        "name": [
          {
            "use": "official",
            "family": "Nguyen",
            "given": ["Avery"]
          }
        ]
      }
    },
    {
      "fullUrl": "urn:uuid:pat-1",
      "resource": {
        "resourceType": "Patient",
        "id": "pat-1",
        "meta": {
          "profile": ["http://hl7.org/fhir/us/core/StructureDefinition/us-core-patient"]
        },
        "identifier": [
          {
            "system": "http://hospital.smarthealth.org/mrn",
            "value": "SYN-REI-0001"
          }
        ],
        "name": [
          {
            "use": "official",
            "family": "Rivera",
            "given": ["Maya"]
          }
        ],
        "gender": "female",
        "birthDate": "1991-08-17",
        "telecom": [
          {
            "system": "phone",
            "value": "555-010-1200",
            "use": "mobile"
          }
        ],
        "address": [
            {
              "use": "home",
              "line": ["1000 Synthetic Ave"],
              "city": "Palo Alto",
              "state": "CA",
              "postalCode": "94304",
              "country": "US"
            }
          ],
          "communication": [
            {
              "language": {
                "coding": [
                  {
                    "system": "urn:ietf:bcp:47",
                    "code": "en",
                    "display": "English"
                  }
                ],
                "text": "English"
              },
              "preferred": true
            }
          ],
          "extension": [
            {
              "url": "http://hl7.org/fhir/us/core/StructureDefinition/us-core-race",
              "extension": [
                {
                  "url": "ombCategory",
                  "valueCoding": {
                    "system": "urn:oid:2.16.840.1.113883.6.238",
                    "code": "2106-3",
                    "display": "White"
                  }
                },
                { "url": "text", "valueString": "White" }
              ]
            },
            {
              "url": "http://hl7.org/fhir/us/core/StructureDefinition/us-core-ethnicity",
              "extension": [
                {
                  "url": "ombCategory",
                  "valueCoding": {
                    "system": "urn:oid:2.16.840.1.113883.6.238",
                    "code": "2186-5",
                    "display": "Not Hispanic or Latino"
                  }
                },
                { "url": "text", "valueString": "Not Hispanic or Latino" }
              ]
            }
          ]
      }
    },
    {
      "fullUrl": "urn:uuid:enc-1",
      "resource": {
        "resourceType": "Encounter",
        "id": "enc-1",
        "status": "finished",
        "class": {
          "system": "http://terminology.hl7.org/CodeSystem/v3-ActCode",
          "code": "AMB",
          "display": "ambulatory"
        },
        "type": [
          {
            "coding": [
              {
                "system": "http://snomed.info/sct",
                "code": "408443003",
                "display": "Fertility evaluation (procedure)"
              }
            ],
            "text": "Reproductive endocrinology and infertility evaluation"
          }
        ],
        "subject": { "reference": "Patient/pat-1" },
        "serviceProvider": { "reference": "Organization/org-1" },
        "participant": [
          {
            "individual": { "reference": "Practitioner/pract-1" }
          }
        ],
        "period": {
          "start": "2026-01-10T09:00:00-08:00",
          "end": "2026-01-10T09:45:00-08:00"
        },
        "reasonCode": [
          {
            "coding": [
              {
                "system": "http://snomed.info/sct",
                "code": "237115008",
                "display": "Infertility (finding)"
              }
            ],
            "text": "Trying to conceive for 14 months"
          }
        ]
      }
    },
    {
      "fullUrl": "urn:uuid:cond-1",
      "resource": {
        "resourceType": "Condition",
        "id": "cond-1",
        "clinicalStatus": {
          "coding": [
            {
              "system": "http://terminology.hl7.org/CodeSystem/condition-clinical",
              "code": "active"
            }
          ]
        },
        "verificationStatus": {
          "coding": [
            {
              "system": "http://terminology.hl7.org/CodeSystem/condition-ver-status",
              "code": "confirmed"
            }
          ]
        },
        "category": [
          {
            "coding": [
              {
                "system": "http://terminology.hl7.org/CodeSystem/condition-category",
                "code": "problem-list-item"
              }
            ]
          }
        ],
        "code": {
          "coding": [
            {
              "system": "http://snomed.info/sct",
              "code": "237115008",
              "display": "Infertility (finding)"
            }
          ],
          "text": "Primary infertility"
        },
        "subject": { "reference": "Patient/pat-1" },
        "encounter": { "reference": "Encounter/enc-1" },
        "onsetDateTime": "2024-11-15"
      }
    },
    {
      "fullUrl": "urn:uuid:cond-2",
      "resource": {
        "resourceType": "Condition",
        "id": "cond-2",
        "clinicalStatus": {
          "coding": [
            {
              "system": "http://terminology.hl7.org/CodeSystem/condition-clinical",
              "code": "active"
            }
          ]
        },
        "verificationStatus": {
          "coding": [
            {
              "system": "http://terminology.hl7.org/CodeSystem/condition-ver-status",
              "code": "confirmed"
            }
          ]
        },
        "category": [
          {
            "coding": [
              {
                "system": "http://terminology.hl7.org/CodeSystem/condition-category",
                "code": "problem-list-item"
              }
            ]
          }
        ],
        "code": {
          "coding": [
            {
              "system": "http://snomed.info/sct",
              "code": "69878008",
              "display": "Polycystic ovary syndrome"
            }
          ],
          "text": "PCOS (irregular menses, hyperandrogen symptoms)"
        },
        "subject": { "reference": "Patient/pat-1" },
        "encounter": { "reference": "Encounter/enc-1" },
        "onsetDateTime": "2018-06-01"
      }
    },
    {
      "fullUrl": "urn:uuid:cond-3",
      "resource": {
        "resourceType": "Condition",
        "id": "cond-3",
        "clinicalStatus": {
          "coding": [
            {
              "system": "http://terminology.hl7.org/CodeSystem/condition-clinical",
              "code": "active"
            }
          ]
        },
        "verificationStatus": {
          "coding": [
            {
              "system": "http://terminology.hl7.org/CodeSystem/condition-ver-status",
              "code": "confirmed"
            }
          ]
        },
        "category": [
          {
            "coding": [
              {
                "system": "http://terminology.hl7.org/CodeSystem/condition-category",
                "code": "problem-list-item"
              }
            ]
          }
        ],
        "code": {
          "coding": [
            {
              "system": "http://snomed.info/sct",
              "code": "414916001",
              "display": "Obesity (disorder)"
            }
          ],
          "text": "BMI in obese range"
        },
        "subject": { "reference": "Patient/pat-1" },
        "onsetDateTime": "2020-01-01"
      }
    },
    {
      "fullUrl": "urn:uuid:obs-bmi-1",
      "resource": {
        "resourceType": "Observation",
        "id": "obs-bmi-1",
        "status": "final",
        "category": [
          {
            "coding": [
              {
                "system": "http://terminology.hl7.org/CodeSystem/observation-category",
                "code": "vital-signs",
                "display": "Vital Signs"
              }
            ]
          }
        ],
        "code": {
          "coding": [
            {
              "system": "http://loinc.org",
              "code": "39156-5",
              "display": "Body mass index (BMI) [Ratio]"
            }
          ]
        },
        "subject": { "reference": "Patient/pat-1" },
        "effectiveDateTime": "2026-01-10T09:10:00-08:00",
        "valueQuantity": {
          "value": 32.4,
          "unit": "kg/m2",
          "system": "http://unitsofmeasure.org",
          "code": "kg/m2"
        }
      }
    },
    {
      "fullUrl": "urn:uuid:obs-lmp-1",
      "resource": {
        "resourceType": "Observation",
        "id": "obs-lmp-1",
        "status": "final",
        "category": [
          {
            "coding": [
              {
                "system": "http://terminology.hl7.org/CodeSystem/observation-category",
                "code": "survey"
              }
            ]
          }
        ],
        "code": {
          "coding": [
            {
              "system": "http://loinc.org",
              "code": "8665-2",
              "display": "Last menstrual period start date"
            }
          ],
          "text": "LMP"
        },
        "subject": { "reference": "Patient/pat-1" },
        "effectiveDateTime": "2026-01-10",
        "valueDateTime": "2025-12-18"
      }
    },
    {
      "fullUrl": "urn:uuid:obs-amh-1",
      "resource": {
        "resourceType": "Observation",
        "id": "obs-amh-1",
        "status": "final",
        "category": [
          {
            "coding": [
              {
                "system": "http://terminology.hl7.org/CodeSystem/observation-category",
                "code": "laboratory"
              }
            ]
          }
        ],
        "code": {
          "coding": [
            {
              "system": "http://loinc.org",
              "code": "38476-8",
              "display": "Anti-Mullerian hormone [Mass/volume] in Serum or Plasma"
            }
          ],
          "text": "AMH"
        },
        "subject": { "reference": "Patient/pat-1" },
        "effectiveDateTime": "2026-01-12T08:30:00-08:00",
        "valueQuantity": {
          "value": 6.2,
          "unit": "ng/mL",
          "system": "http://unitsofmeasure.org",
          "code": "ng/mL"
        }
      }
    },
    {
      "fullUrl": "urn:uuid:obs-fsh-1",
      "resource": {
        "resourceType": "Observation",
        "id": "obs-fsh-1",
        "status": "final",
        "category": [
          {
            "coding": [
              {
                "system": "http://terminology.hl7.org/CodeSystem/observation-category",
                "code": "laboratory"
              }
            ]
          }
        ],
        "code": {
          "coding": [
            {
              "system": "http://loinc.org",
              "code": "15067-2",
              "display": "Follitropin (FSH) [Units/volume] in Serum or Plasma"
            }
          ],
          "text": "FSH"
        },
        "subject": { "reference": "Patient/pat-1" },
        "effectiveDateTime": "2026-01-12T08:30:00-08:00",
        "valueQuantity": {
          "value": 5.4,
          "unit": "mIU/mL",
          "system": "http://unitsofmeasure.org",
          "code": "m[IU]/mL"
        }
      }
    },
    {
      "fullUrl": "urn:uuid:obs-lh-1",
      "resource": {
        "resourceType": "Observation",
        "id": "obs-lh-1",
        "status": "final",
        "category": [
          {
            "coding": [
              {
                "system": "http://terminology.hl7.org/CodeSystem/observation-category",
                "code": "laboratory"
              }
            ]
          }
        ],
        "code": {
          "coding": [
            {
              "system": "http://loinc.org",
              "code": "10501-5",
              "display": "Lutropin (LH) [Units/volume] in Serum or Plasma"
            }
          ],
          "text": "LH"
        },
        "subject": { "reference": "Patient/pat-1" },
        "effectiveDateTime": "2026-01-12T08:30:00-08:00",
        "valueQuantity": {
          "value": 12.8,
          "unit": "mIU/mL",
          "system": "http://unitsofmeasure.org",
          "code": "m[IU]/mL"
        }
      }
    },
    {
      "fullUrl": "urn:uuid:obs-e2-1",
      "resource": {
        "resourceType": "Observation",
        "id": "obs-e2-1",
        "status": "final",
        "category": [
          {
            "coding": [
              {
                "system": "http://terminology.hl7.org/CodeSystem/observation-category",
                "code": "laboratory"
              }
            ]
          }
        ],
        "code": {
          "coding": [
            {
              "system": "http://loinc.org",
              "code": "2243-4",
              "display": "Estradiol [Mass/volume] in Serum or Plasma"
            }
          ],
          "text": "Estradiol"
        },
        "subject": { "reference": "Patient/pat-1" },
        "effectiveDateTime": "2026-01-12T08:30:00-08:00",
        "valueQuantity": {
          "value": 42,
          "unit": "pg/mL",
          "system": "http://unitsofmeasure.org",
          "code": "pg/mL"
        }
      }
    },
    {
      "fullUrl": "urn:uuid:obs-tsh-1",
      "resource": {
        "resourceType": "Observation",
        "id": "obs-tsh-1",
        "status": "final",
        "category": [
          {
            "coding": [
              {
                "system": "http://terminology.hl7.org/CodeSystem/observation-category",
                "code": "laboratory"
              }
            ]
          }
        ],
        "code": {
          "coding": [
            {
              "system": "http://loinc.org",
              "code": "3016-3",
              "display": "Thyrotropin [Units/volume] in Serum or Plasma"
            }
          ],
          "text": "TSH"
        },
        "subject": { "reference": "Patient/pat-1" },
        "effectiveDateTime": "2026-01-12T08:30:00-08:00",
        "valueQuantity": {
          "value": 2.1,
          "unit": "uIU/mL",
          "system": "http://unitsofmeasure.org",
          "code": "u[IU]/mL"
        }
      }
    },
    {
      "fullUrl": "urn:uuid:obs-prl-1",
      "resource": {
        "resourceType": "Observation",
        "id": "obs-prl-1",
        "status": "final",
        "category": [
          {
            "coding": [
              {
                "system": "http://terminology.hl7.org/CodeSystem/observation-category",
                "code": "laboratory"
              }
            ]
          }
        ],
        "code": {
          "coding": [
            {
              "system": "http://loinc.org",
              "code": "2842-3",
              "display": "Prolactin [Mass/volume] in Serum or Plasma"
            }
          ],
          "text": "Prolactin"
        },
        "subject": { "reference": "Patient/pat-1" },
        "effectiveDateTime": "2026-01-12T08:30:00-08:00",
        "valueQuantity": {
          "value": 14.6,
          "unit": "ng/mL",
          "system": "http://unitsofmeasure.org",
          "code": "ng/mL"
        }
      }
    },
    {
      "fullUrl": "urn:uuid:obs-hba1c-1",
      "resource": {
        "resourceType": "Observation",
        "id": "obs-hba1c-1",
        "status": "final",
        "category": [
          {
            "coding": [
              {
                "system": "http://terminology.hl7.org/CodeSystem/observation-category",
                "code": "laboratory"
              }
            ]
          }
        ],
        "code": {
          "coding": [
            {
              "system": "http://loinc.org",
              "code": "4548-4",
              "display": "Hemoglobin A1c/Hemoglobin.total in Blood"
            }
          ],
          "text": "HbA1c"
        },
        "subject": { "reference": "Patient/pat-1" },
        "effectiveDateTime": "2026-01-12T08:30:00-08:00",
        "valueQuantity": {
          "value": 5.7,
          "unit": "%",
          "system": "http://unitsofmeasure.org",
          "code": "%"
        }
      }
    },
    {
      "fullUrl": "urn:uuid:proc-hsg-1",
      "resource": {
        "resourceType": "Procedure",
        "id": "proc-hsg-1",
        "status": "completed",
        "code": {
          "coding": [
            {
              "system": "http://snomed.info/sct",
              "code": "312251001",
              "display": "Hysterosalpingography (procedure)"
            }
          ],
          "text": "HSG"
        },
        "subject": { "reference": "Patient/pat-1" },
        "performedDateTime": "2026-01-15T10:00:00-08:00",
        "reasonCode": [
          {
            "coding": [
              {
                "system": "http://snomed.info/sct",
                "code": "237115008",
                "display": "Infertility (finding)"
              }
            ]
          }
        ],
        "note": [
          {
            "text": "HSG result: bilateral tubal patency; normal uterine cavity (synthetic)."
          }
        ]
      }
    },
    {
      "fullUrl": "urn:uuid:medreq-1",
      "resource": {
        "resourceType": "MedicationRequest",
        "id": "medreq-1",
        "status": "active",
        "intent": "order",
        "medicationCodeableConcept": {
          "coding": [
            {
              "system": "http://www.nlm.nih.gov/research/umls/rxnorm",
              "code": "84108",
              "display": "letrozole 2.5 MG Oral Tablet"
            }
          ],
          "text": "Letrozole 2.5 mg tablets"
        },
        "subject": { "reference": "Patient/pat-1" },
        "authoredOn": "2026-01-10",
        "requester": { "reference": "Practitioner/pract-1" },
        "reasonCode": [
          {
            "coding": [
              {
                "system": "http://snomed.info/sct",
                "code": "237115008",
                "display": "Infertility (finding)"
              }
            ]
          }
        ],
        "dosageInstruction": [
          {
            "text": "Take 2.5 mg by mouth daily on cycle days 3–7 for ovulation induction (synthetic plan).",
            "timing": {
              "repeat": {
                "frequency": 1,
                "period": 1,
                "periodUnit": "d"
              }
            },
            "route": {
              "coding": [
                {
                  "system": "http://snomed.info/sct",
                  "code": "26643006",
                  "display": "Oral route"
                }
              ]
            },
            "doseAndRate": [
              {
                "doseQuantity": {
                  "value": 2.5,
                  "unit": "mg",
                  "system": "http://unitsofmeasure.org",
                  "code": "mg"
                }
              }
            ]
          }
        ]
      }
    },
    {
      "fullUrl": "urn:uuid:medreq-2",
      "resource": {
        "resourceType": "MedicationRequest",
        "id": "medreq-2",
        "status": "active",
        "intent": "order",
        "medicationCodeableConcept": {
          "coding": [
            {
              "system": "http://snomed.info/sct",
              "code": "266719009",
              "display": "Prenatal vitamin (product)"
            }
          ],
          "text": "Prenatal vitamin"
        },
        "subject": { "reference": "Patient/pat-1" },
        "authoredOn": "2026-01-10",
        "requester": { "reference": "Practitioner/pract-1" },
        "dosageInstruction": [
          {
            "text": "Take 1 prenatal vitamin by mouth daily.These include folate 800 mcg, fish oul 1g and vitamin D 2000u"
          }
        ]
      }
    },
    {
      "fullUrl": "urn:uuid:allergy-1",
      "resource": {
        "resourceType": "AllergyIntolerance",
        "id": "allergy-1",
        "clinicalStatus": {
          "coding": [
            {
              "system": "http://terminology.hl7.org/CodeSystem/allergyintolerance-clinical",
              "code": "active"
            }
          ]
        },
        "verificationStatus": {
          "coding": [
            {
              "system": "http://terminology.hl7.org/CodeSystem/allergyintolerance-verification",
              "code": "confirmed"
            }
          ]
        },
        "type": "allergy",
        "category": ["medication"],
        "criticality": "low",
        "code": {
          "coding": [
            {
              "system": "http://snomed.info/sct",
              "code": "91936005",
              "display": "Allergy to sulfonamide (finding)"
            }
          ],
          "text": "Sulfonamide antibiotic allergy"
        },
        "patient": { "reference": "Patient/pat-1" },
        "reaction": [
          {
            "manifestation": [
              {
                "coding": [
                  {
                    "system": "http://snomed.info/sct",
                    "code": "247472004",
                    "display": "Hives (finding)"
                  }
                ]
              }
            ],
            "severity": "mild"
          }
        ]
      }
    },
    {
      "fullUrl": "urn:uuid:obs-semen-summary-1",
      "resource": {
        "resourceType": "Observation",
        "id": "obs-semen-summary-1",
        "status": "final",
        "category": [
          {
            "coding": [
              {
                "system": "http://terminology.hl7.org/CodeSystem/observation-category",
                "code": "laboratory"
              }
            ]
          }
        ],
        "code": {
          "coding": [
            {
              "system": "http://loinc.org",
              "code": "13056-7",
              "display": "Semen analysis panel"
            }
          ],
          "text": "Partner semen analysis (summary)"
        },
        "subject": { "reference": "Patient/pat-1" },
        "effectiveDateTime": "2026-01-08T08:00:00-08:00",
        "valueString": "Semen analysis within reference range (synthetic summary)."
      }
    },
    {
      "fullUrl": "urn:uuid:obs-ob-history-1",
      "resource": {
        "resourceType": "Observation",
        "id": "obs-ob-history-1",
        "status": "final",
        "category": [
          {
            "coding": [
              {
                "system": "http://terminology.hl7.org/CodeSystem/observation-category",
                "code": "survey"
              }
            ]
          }
        ],
        "code": {
          "coding": [
            {
              "system": "http://loinc.org",
              "code": "11996-6",
              "display": "Pregnancy status"
            }
          ],
          "text": "Obstetric history summary"
        },
        "subject": { "reference": "Patient/pat-1" },
        "effectiveDateTime": "2026-01-10",
        "valueString": "G2P0020 (two first-trimester pregnancy losses). No living children."
      }
    }
    ,
    {
      "fullUrl": "urn:uuid:cond-rpl-1",
      "resource": {
        "resourceType": "Condition",
        "id": "cond-rpl-1",
        "clinicalStatus": {
          "coding": [
            {
              "system": "http://terminology.hl7.org/CodeSystem/condition-clinical",
              "code": "active"
            }
          ]
        },
        "verificationStatus": {
          "coding": [
            {
              "system": "http://terminology.hl7.org/CodeSystem/condition-ver-status",
              "code": "confirmed"
            }
          ]
        },
        "category": [
          {
            "coding": [
              {
                "system": "http://terminology.hl7.org/CodeSystem/condition-category",
                "code": "problem-list-item"
              }
            ]
          }
        ],
        "code": {
          "coding": [
            {
              "system": "http://snomed.info/sct",
              "code": "70757006",
              "display": "Recurrent miscarriage"
            }
          ],
          "text": "Recurrent pregnancy loss (two early losses)"
        },
        "subject": { "reference": "Patient/pat-1" },
        "onsetDateTime": "2023-11-20",
        "note": [
          {
            "text": "Two first-trimester losses reported; workup pending/ongoing (synthetic)."
          }
        ]
      }
    }
    ,
    {
      "fullUrl": "urn:uuid:cond-loss-1",
      "resource": {
        "resourceType": "Condition",
        "id": "cond-loss-1",
        "clinicalStatus": {
          "coding": [
            {
              "system": "http://terminology.hl7.org/CodeSystem/condition-clinical",
              "code": "inactive"
            }
          ]
        },
        "verificationStatus": {
          "coding": [
            {
              "system": "http://terminology.hl7.org/CodeSystem/condition-ver-status",
              "code": "confirmed"
            }
          ]
        },
        "code": {
          "coding": [
            {
              "system": "http://snomed.info/sct",
              "code": "17369002",
              "display": "Miscarriage"
            }
          ],
          "text": "Early pregnancy loss #1"
        },
        "subject": { "reference": "Patient/pat-1" },
        "onsetDateTime": "2023-11-20",
        "abatementDateTime": "2023-12-05",
        "note": [
          {
            "text": "Spontaneous miscarriage at ~7 weeks gestation (synthetic), no genetics."
          }
        ]
      }
    }
    ,
    {
      "fullUrl": "urn:uuid:cond-loss-2",
      "resource": {
        "resourceType": "Condition",
        "id": "cond-loss-2",
        "clinicalStatus": {
          "coding": [
            {
              "system": "http://terminology.hl7.org/CodeSystem/condition-clinical",
              "code": "inactive"
            }
          ]
        },
        "verificationStatus": {
          "coding": [
            {
              "system": "http://terminology.hl7.org/CodeSystem/condition-ver-status",
              "code": "confirmed"
            }
          ]
        },
        "code": {
          "coding": [
            {
              "system": "http://snomed.info/sct",
              "code": "17369002",
              "display": "Miscarriage"
            }
          ],
          "text": "Early pregnancy loss #2 (missed abortion)"
        },
        "subject": { "reference": "Patient/pat-1" },
        "onsetDateTime": "2024-07-18",
        "abatementDateTime": "2024-08-02",
        "note": [
          {
            "text": "Missed abortion at ~9 weeks; managed with D&C (synthetic)."
          }
        ]
      }
    }
    ,
    {
      "fullUrl": "urn:uuid:proc-dc-1",
      "resource": {
        "resourceType": "Procedure",
        "id": "proc-dc-1",
        "status": "completed",
        "code": {
          "coding": [
            {
              "system": "http://snomed.info/sct",
              "code": "17636008",
              "display": "Dilation and curettage"
            }
          ],
          "text": "D&C for missed abortion"
        },
        "subject": { "reference": "Patient/pat-1" },
        "performedDateTime": "2024-08-02T10:30:00-07:00",
        "reasonReference": [
          { "reference": "Condition/cond-loss-2" }
        ],
        "note": [
          {
            "text": "Uncomplicated procedure; pathology not clinically significant (synthetic)."
          }
        ]
      }
    }
    ,
    {
      "fullUrl": "urn:uuid:proc-hysteroscopy-1",
      "resource": {
        "resourceType": "Procedure",
        "id": "proc-hysteroscopy-1",
        "status": "completed",
        "code": {
          "coding": [
            {
              "system": "http://snomed.info/sct",
              "code": "386639001",
              "display": "Hysteroscopy"
            }
          ],
          "text": "Operative hysteroscopy with polypectomy"
        },
        "subject": { "reference": "Patient/pat-1" },
        "performedDateTime": "2025-03-14T09:00:00-07:00",
        "reasonCode": [
          {
            "coding": [
              {
                "system": "http://snomed.info/sct",
                "code": "254582000",
                "display": "Endometrial polyp"
              }
            ],
            "text": "Suspected endometrial polyp"
          }
        ],
        "note": [
          {
            "text": "Small endometrial polyp removed; cavity otherwise normal (synthetic)."
          }
        ]
      }
    }
    ,
    {
      "fullUrl": "urn:uuid:obs-us-uterus-1",
      "resource": {
        "resourceType": "Observation",
        "id": "obs-us-uterus-1",
        "status": "final",
        "category": [
          {
            "coding": [
              {
                "system": "http://terminology.hl7.org/CodeSystem/observation-category",
                "code": "imaging"
              }
            ]
          }
        ],
        "code": {
          "coding": [
            {
              "system": "http://loinc.org",
              "code": "65714-6",
              "display": "US Pelvis"
            }
          ],
          "text": "Pelvic ultrasound summary"
        },
        "subject": { "reference": "Patient/pat-1" },
        "effectiveDateTime": "2026-01-10T09:20:00-08:00",
        "valueString": "Uterus normal size; endometrium thin at baseline; ovaries with polycystic morphology (synthetic)."
      }
    },
    {
      "fullUrl": "urn:uuid:imm-hpv-1",
      "resource": {
        "resourceType": "Immunization",
        "id": "imm-hpv-1",
        "status": "completed",
        "vaccineCode": {
          "coding": [
            {
              "system": "http://hl7.org/fhir/sid/cvx",
              "code": "62",
              "display": "HPV, quadrivalent"
            }
          ],
          "text": "HPV vaccine"
        },
        "patient": { "reference": "Patient/pat-1" },
        "occurrenceDateTime": "2012-06-15",
        "note": [
          {
            "text": "Completed HPV vaccine series in early adulthood (synthetic)."
          }
        ]
      }
    }
    ,
    {
      "fullUrl": "urn:uuid:imm-flu-2025",
      "resource": {
        "resourceType": "Immunization",
        "id": "imm-flu-2025",
        "status": "completed",
        "vaccineCode": {
          "coding": [
            {
              "system": "http://hl7.org/fhir/sid/cvx",
              "code": "140",
              "display": "Influenza, seasonal, injectable"
            }
          ],
          "text": "Influenza vaccine"
        },
        "patient": { "reference": "Patient/pat-1" },
        "occurrenceDateTime": "2025-10-10"
      }
    }
    ,
    {
      "fullUrl": "urn:uuid:imm-covid-1",
      "resource": {
        "resourceType": "Immunization",
        "id": "imm-covid-1",
        "status": "completed",
        "vaccineCode": {
          "coding": [
            {
              "system": "http://hl7.org/fhir/sid/cvx",
              "code": "207",
              "display": "COVID-19 mRNA vaccine"
            }
          ],
          "text": "COVID-19 vaccine"
        },
        "patient": { "reference": "Patient/pat-1" },
        "occurrenceDateTime": "2024-09-01",
        "note": [
          {
            "text": "Completed primary COVID-19 vaccination series (synthetic)."
          }
        ]
      }
    },
    {
      "fullUrl": "urn:uuid:obs-rubella-igg-1",
      "resource": {
        "resourceType": "Observation",
        "id": "obs-rubella-igg-1",
        "status": "final",
        "category": [
          {
            "coding": [
              {
                "system": "http://terminology.hl7.org/CodeSystem/observation-category",
                "code": "laboratory"
              }
            ]
          }
        ],
        "code": {
          "coding": [
            {
              "system": "http://loinc.org",
              "code": "8014-3",
              "display": "Rubella virus IgG Ab"
            }
          ],
          "text": "Rubella immunity"
        },
        "subject": { "reference": "Patient/pat-1" },
        "effectiveDateTime": "2026-01-12",
        "valueString": "Immune"
      }
    }
    ,
    {
      "fullUrl": "urn:uuid:obs-varicella-igg-1",
      "resource": {
        "resourceType": "Observation",
        "id": "obs-varicella-igg-1",
        "status": "final",
        "category": [
          {
            "coding": [
              {
                "system": "http://terminology.hl7.org/CodeSystem/observation-category",
                "code": "laboratory"
              }
            ]
          }
        ],
        "code": {
          "coding": [
            {
              "system": "http://loinc.org",
              "code": "13926-1",
              "display": "Varicella zoster virus IgG Ab"
            }
          ],
          "text": "Varicella immunity"
        },
        "subject": { "reference": "Patient/pat-1" },
        "effectiveDateTime": "2026-01-12",
        "valueString": "Immune"
      }
    },
    {
      "fullUrl": "urn:uuid:enc-loss-1",
      "resource": {
        "resourceType": "Encounter",
        "id": "enc-loss-1",
        "status": "finished",
        "class": {
          "system": "http://terminology.hl7.org/CodeSystem/v3-ActCode",
          "code": "AMB"
        },
        "type": [
          {
            "coding": [
              {
                "system": "http://snomed.info/sct",
                "code": "32485007",
                "display": "Evaluation of miscarriage"
              }
            ],
            "text": "Early pregnancy loss evaluation"
          }
        ],
        "subject": { "reference": "Patient/pat-1" },
        "period": {
          "start": "2024-07-18T09:00:00-07:00",
          "end": "2024-07-18T10:00:00-07:00"
        },
        "reasonCode": [
          {
            "coding": [
              {
                "system": "http://snomed.info/sct",
                "code": "17369002",
                "display": "Miscarriage"
              }
            ]
          }
        ]
      }
    },
    {
      "fullUrl": "urn:uuid:enc-dc-1",
      "resource": {
        "resourceType": "Encounter",
        "id": "enc-dc-1",
        "status": "finished",
        "class": {
          "system": "http://terminology.hl7.org/CodeSystem/v3-ActCode",
          "code": "DAY",
          "display": "Day surgery"
        },
        "type": [
          {
            "coding": [
              {
                "system": "http://snomed.info/sct",
                "code": "17636008",
                "display": "Dilation and curettage"
              }
            ],
            "text": "Surgical management of miscarriage"
          }
        ],
        "subject": { "reference": "Patient/pat-1" },
        "period": {
          "start": "2024-08-02T10:00:00-07:00",
          "end": "2024-08-02T12:00:00-07:00"
        }
      }
    },
    {
      "fullUrl": "urn:uuid:enc-rei-followup-1",
      "resource": {
        "resourceType": "Encounter",
        "id": "enc-rei-followup-1",
        "status": "finished",
        "class": {
          "system": "http://terminology.hl7.org/CodeSystem/v3-ActCode",
          "code": "AMB"
        },
        "type": [
          {
            "coding": [
              {
                "system": "http://snomed.info/sct",
                "code": "408443003",
                "display": "Fertility evaluation"
              }
            ],
            "text": "REI follow-up visit"
          }
        ],
        "subject": { "reference": "Patient/pat-1" },
        "period": {
          "start": "2026-01-24T09:00:00-08:00",
          "end": "2026-01-24T09:30:00-08:00"
        },
        "reasonCode": [
          {
            "coding": [
              {
                "system": "http://snomed.info/sct",
                "code": "70757006",
                "display": "Recurrent miscarriage"
              }
            ]
          }
        ]
      }
    },
    {
      "fullUrl": "urn:uuid:doc-rei-note-1",
      "resource": {
        "resourceType": "DocumentReference",
        "id": "doc-rei-note-1",
        "status": "current",
        "type": {
          "coding": [
            {
              "system": "http://loinc.org",
              "code": "11488-4",
              "display": "Consult note"
            }
          ],
          "text": "REI consultation note"
        },
        "subject": { "reference": "Patient/pat-1" },
        "date": "2026-01-10T10:00:00-08:00",
        "author": [
          { "reference": "Practitioner/pract-1" }
        ],
        "description": "Initial reproductive endocrinology consultation note",
        "content": [
          {
            "attachment": {
              "contentType": "text/plain",
              "data": ""
            }
          }
        ]
      }
    },
    {
      "fullUrl": "urn:uuid:obs-height-1",
      "resource": {
        "resourceType": "Observation",
        "id": "obs-height-1",
        "status": "final",
        "category": [
          {
            "coding": [
              {
                "system": "http://terminology.hl7.org/CodeSystem/observation-category",
                "code": "vital-signs"
              }
            ]
          }
        ],
        "code": {
          "coding": [
            {
              "system": "http://loinc.org",
              "code": "8302-2",
              "display": "Body height"
            }
          ]
        },
        "subject": { "reference": "Patient/pat-1" },
        "effectiveDateTime": "2026-01-10T09:10:00-08:00",
        "valueQuantity": {
          "value": 165,
          "unit": "cm",
          "system": "http://unitsofmeasure.org",
          "code": "cm"
        }
      }
    },
    {
      "fullUrl": "urn:uuid:obs-weight-1",
      "resource": {
        "resourceType": "Observation",
        "id": "obs-weight-1",
        "status": "final",
        "category": [
          {
            "coding": [
              {
                "system": "http://terminology.hl7.org/CodeSystem/observation-category",
                "code": "vital-signs"
              }
            ]
          }
        ],
        "code": {
          "coding": [
            {
              "system": "http://loinc.org",
              "code": "29463-7",
              "display": "Body weight"
            }
          ]
        },
        "subject": { "reference": "Patient/pat-1" },
        "effectiveDateTime": "2026-01-10T09:10:00-08:00",
        "valueQuantity": {
          "value": 88,
          "unit": "kg",
          "system": "http://unitsofmeasure.org",
          "code": "kg"
        }
      }
    },
    {
      "fullUrl": "urn:uuid:obs-bloodtype-1",
      "resource": {
        "resourceType": "Observation",
        "id": "obs-bloodtype-1",
        "status": "final",
        "category": [
          {
            "coding": [
              {
                "system": "http://terminology.hl7.org/CodeSystem/observation-category",
                "code": "laboratory"
              }
            ]
          }
        ],
        "code": {
          "coding": [
            {
              "system": "http://loinc.org",
              "code": "882-1",
              "display": "ABO and Rh group"
            }
          ]
        },
        "subject": { "reference": "Patient/pat-1" },
        "effectiveDateTime": "2024-08-02",
        "valueCodeableConcept": {
          "coding": [
            {
              "system": "http://snomed.info/sct",
              "code": "112144000",
              "display": "O positive"
            }
          ],
          "text": "O+"
        }
      }
    }
  ]
}
